VisualDistractionTrials.thisRepN,VisualDistractionTrials.thisTrialN,VisualDistractionTrials.thisN,VisualDistractionTrials.thisIndex,VisualAndAudioDistractor.thisRepN,VisualAndAudioDistractor.thisTrialN,VisualAndAudioDistractor.thisN,VisualAndAudioDistractor.thisIndex,AudioDistractorFiles.thisRepN,AudioDistractorFiles.thisTrialN,AudioDistractorFiles.thisN,AudioDistractorFiles.thisIndex,IntroText.started,IntroText.stopped,next_screen1.keys,next_screen1.rt,next_screen1.started,next_screen1.stopped,FixationCrossText.started,FixationCrossText.stopped,Condition,p_Target_2.started,p_Target_2.stopped,b_Target_2.started,b_Target_2.stopped,p_Distractor_2.started,p_Distractor_2.stopped,b_Distractor_2.started,b_Distractor_2.stopped,g_Distractor_2.started,g_Distractor_2.stopped,h_Filler_2.started,h_Filler_2.stopped,l_Filler_2.started,l_Filler_2.stopped,y_filler_2.started,y_filler_2.stopped,Response,Response_code,mouse_2.x,mouse_2.y,mouse_2.leftButton,mouse_2.midButton,mouse_2.rightButton,mouse_2.time,mouse_2.started,mouse_2.stopped,whiteimage_2.started,whiteimage_2.stopped,Faster.started,Faster.stopped,happy.started,happy.stopped,sad.started,sad.stopped,Pause_Text.started,Pause_Text.stopped,next_screen1_2.keys,next_screen1_2.rt,next_screen1_2.started,next_screen1_2.stopped,p_Target.started,p_Target.stopped,b_Target.started,b_Target.stopped,p_Distractor.started,p_Distractor.stopped,b_Distractor.started,b_Distractor.stopped,g_Distractor.started,g_Distractor.stopped,h_Filler.started,h_Filler.stopped,l_Filler.started,l_Filler.stopped,y_filler.started,y_filler.stopped,p_Dis_Sound.started,p_Dis_Sound.stopped,b_Dis_Sound.started,b_Dis_Sound.stopped,g_Dis_Sound.started,g_Dis_Sound.stopped,mouse.x,mouse.y,mouse.leftButton,mouse.midButton,mouse.rightButton,mouse.time,mouse.started,mouse.stopped,whiteimage.started,whiteimage.stopped,p_Target_3.started,p_Target_3.stopped,b_Target_3.started,b_Target_3.stopped,h_Filler_3.started,h_Filler_3.stopped,l_Filler_3.started,l_Filler_3.stopped,y_filler_3.started,y_filler_3.stopped,p_Dis_Sound_2.started,p_Dis_Sound_2.stopped,b_Dis_Sound_2.started,b_Dis_Sound_2.stopped,g_Dis_Sound_2.started,g_Dis_Sound_2.stopped,mouse_3.x,mouse_3.y,mouse_3.leftButton,mouse_3.midButton,mouse_3.rightButton,mouse_3.time,mouse_3.started,mouse_3.stopped,whiteimage_3.started,whiteimage_3.stopped,participant,session,date,expName,psychopyVersion,frameRate,
,,,,,,,,,,,,63.019536899999366,None,return,1.133902700006729,63.019536899999366,None,,,,,,,,,,,,,,,,,,,,,,,,,,,,,,,,,,,,,,,,,,,,,,,,,,,,,,,,,,,,,,,,,,,,,,,,,,,,,,,,,,,,,,,,,,,,,,,,,,,,,,12,001,2022-07-13_15h09.51.393,SelectiveAttentionTest,2022.1.3,59.91267128622715,
0,0,0,0,,,,,,,,,,,,,,,64.16914949999773,None,Neutral,65.17409220000263,65.39659469999606,65.17409220000263,65.39659469999606,65.17409220000263,65.39659469999606,65.17409220000263,65.39659469999606,65.17409220000263,65.39659469999606,65.17409220000263,65.39659469999606,65.17409220000263,65.39659469999606,65.17409220000263,65.39659469999606,Incorrect,2.0,"[0.009722223, 0.009027778]","[-0.077083334, -0.077083334]","[0, 1]","[0, 0]","[1, 0]","[0.4490227999922354, 0.5660441999934847]",0.011574990014196374,None,65.38921580000897,None,70.41946070000995,None,70.41946070000995,None,70.41946070000995,None,,,,,,,,,,,,,,,,,,,,,,,,,,,,,,,,,,,,,,,,,,,,,,,,,,,,,,,,,,,,,,,,,12,001,2022-07-13_15h09.51.393,SelectiveAttentionTest,2022.1.3,59.91267128622715,
1,0,1,0,,,,,,,,,,,,,,,70.87169820000418,None,Incongruent,71.88796560000628,72.09412900000461,71.88796560000628,72.09412900000461,71.88796560000628,72.09412900000461,71.88796560000628,72.09412900000461,71.88796560000628,72.09412900000461,71.88796560000628,72.09412900000461,71.88796560000628,72.09412900000461,71.88796560000628,72.09412900000461,Correct,1.0,[0.03125],[-0.094444446],[0],[0],[1],[0.46656570000050124],0.012614490013220347,None,72.06080479999946,None,77.11425660000532,None,77.11425660000532,None,77.11425660000532,None,,,,,,,,,,,,,,,,,,,,,,,,,,,,,,,,,,,,,,,,,,,,,,,,,,,,,,,,,,,,,,,,,12,001,2022-07-13_15h09.51.393,SelectiveAttentionTest,2022.1.3,59.91267128622715,
2,0,2,0,,,,,,,,,,,,,,,77.5736018000025,None,Incongruent,78.58690300000308,78.79687390000618,78.58690300000308,78.79687390000618,78.58690300000308,78.79687390000618,78.58690300000308,78.79687390000618,78.58690300000308,78.79687390000618,78.58690300000308,78.79687390000618,78.58690300000308,78.79687390000618,78.58690300000308,78.79687390000618,Correct,1.0,[0.03125],[-0.094444446],[0],[0],[1],[0.5532031000038842],0.013559989994973876,None,78.76343140000245,None,83.83055729999614,None,83.83055729999614,None,83.83055729999614,None,,,,,,,,,,,,,,,,,,,,,,,,,,,,,,,,,,,,,,,,,,,,,,,,,,,,,,,,,,,,,,,,,12,001,2022-07-13_15h09.51.393,SelectiveAttentionTest,2022.1.3,59.91267128622715,
3,0,3,0,,,,,,,,,,,,,,,84.27629130000423,None,Neutral,85.29223740000452,85.49911279999651,85.29223740000452,85.49911279999651,85.29223740000452,85.49911279999651,85.29223740000452,85.49911279999651,85.29223740000452,85.49911279999651,85.29223740000452,85.49911279999651,85.29223740000452,85.49911279999651,85.29223740000452,85.49911279999651,Correct,1.0,[0.03125],[-0.094444446],[1],[0],[0],[0.635894000006374],0.012767190011800267,None,85.46574710001005,None,90.52469839999685,None,90.52469839999685,None,90.52469839999685,None,,,,,,,,,,,,,,,,,,,,,,,,,,,,,,,,,,,,,,,,,,,,,,,,,,,,,,,,,,,,,,,,,12,001,2022-07-13_15h09.51.393,SelectiveAttentionTest,2022.1.3,59.91267128622715,
4,0,4,0,,,,,,,,,,,,,,,90.97859590000007,None,Neutral,91.98750289999589,92.20153550000396,91.98750289999589,92.20153550000396,91.98750289999589,92.20153550000396,91.98750289999589,92.20153550000396,91.98750289999589,92.20153550000396,91.98750289999589,92.20153550000396,91.98750289999589,92.20153550000396,91.98750289999589,92.20153550000396,Correct,1.0,[0.03125],[-0.09375],[0],[0],[1],[0.5021007000032114],0.014096190017880872,None,92.16813810000895,None,97.22085060000245,None,97.22085060000245,None,97.22085060000245,None,,,,,,,,,,,,,,,,,,,,,,,,,,,,,,,,,,,,,,,,,,,,,,,,,,,,,,,,,,,,,,,,,12,001,2022-07-13_15h09.51.393,SelectiveAttentionTest,2022.1.3,59.91267128622715,
5,0,5,0,,,,,,,,,,,,,,,97.68083720000868,None,Congruent,98.6920642000041,98.90359750000061,98.6920642000041,98.90359750000061,98.6920642000041,98.90359750000061,98.6920642000041,98.90359750000061,98.6920642000041,98.90359750000061,98.6920642000041,98.90359750000061,98.6920642000041,98.90359750000061,98.6920642000041,98.90359750000061,Correct,1.0,[0.03125],[-0.09375],[1],[0],[0],[0.5534054000017932],0.013523090005037375,None,98.87041260000842,None,103.93039829999907,None,103.93039829999907,None,103.93039829999907,None,,,,,,,,,,,,,,,,,,,,,,,,,,,,,,,,,,,,,,,,,,,,,,,,,,,,,,,,,,,,,,,,,12,001,2022-07-13_15h09.51.393,SelectiveAttentionTest,2022.1.3,59.91267128622715,
6,0,6,0,,,,,,,,,,,,,,,104.3829587000073,None,Neutral,105.39716970000882,105.60604410000087,105.39716970000882,105.60604410000087,105.39716970000882,105.60604410000087,105.39716970000882,105.60604410000087,105.39716970000882,105.60604410000087,105.39716970000882,105.60604410000087,105.39716970000882,105.60604410000087,105.39716970000882,105.60604410000087,Correct,1.0,[0.03125],[-0.09375],[0],[0],[1],[0.4511118000082206],0.01269869001407642,None,105.57274080000934,None,110.62006620000466,None,110.62006620000466,None,110.62006620000466,None,,,,,,,,,,,,,,,,,,,,,,,,,,,,,,,,,,,,,,,,,,,,,,,,,,,,,,,,,,,,,,,,,12,001,2022-07-13_15h09.51.393,SelectiveAttentionTest,2022.1.3,59.91267128622715,
7,0,7,0,,,,,,,,,,,,,,,111.08557300000393,None,Congruent,112.09885589999612,112.30853330000537,112.09885589999612,112.30853330000537,112.09885589999612,112.30853330000537,112.09885589999612,112.30853330000537,112.09885589999612,112.30853330000537,112.09885589999612,112.30853330000537,112.09885589999612,112.30853330000537,112.09885589999612,112.30853330000537,None,0.0,[],[],[],[],[],[],0.01351199000782799,None,112.27489820000483,None,117.31951040000422,None,117.31951040000422,None,117.31951040000422,None,,,,,,,,,,,,,,,,,,,,,,,,,,,,,,,,,,,,,,,,,,,,,,,,,,,,,,,,,,,,,,,,,12,001,2022-07-13_15h09.51.393,SelectiveAttentionTest,2022.1.3,59.91267128622715,
8,0,8,0,,,,,,,,,,,,,,,117.77090060000774,None,Incongruent,118.78379380000115,118.99392360000638,118.78379380000115,118.99392360000638,118.78379380000115,118.99392360000638,118.78379380000115,118.99392360000638,118.78379380000115,118.99392360000638,118.78379380000115,118.99392360000638,118.78379380000115,118.99392360000638,118.78379380000115,118.99392360000638,Correct,1.0,[0.03125],[-0.093055554],[1],[0],[0],[0.5865328999934718],0.014035489992238581,None,118.96051530000113,None,124.02042960000108,None,124.02042960000108,None,124.02042960000108,None,,,,,,,,,,,,,,,,,,,,,,,,,,,,,,,,,,,,,,,,,,,,,,,,,,,,,,,,,,,,,,,,,12,001,2022-07-13_15h09.51.393,SelectiveAttentionTest,2022.1.3,59.91267128622715,
9,0,9,0,,,,,,,,,,,,,,,124.4733006000024,None,Incongruent,125.48692769999616,125.69592230000126,125.48692769999616,125.69592230000126,125.48692769999616,125.69592230000126,125.48692769999616,125.69592230000126,125.48692769999616,125.69592230000126,125.48692769999616,125.69592230000126,125.48692769999616,125.69592230000126,125.48692769999616,125.69592230000126,Correct,1.0,[0.03125],[-0.09166667],[1],[0],[0],[0.5013924999948358],0.01309258998662699,None,125.66258830000879,None,130.72096890000103,None,130.72096890000103,None,130.72096890000103,None,,,,,,,,,,,,,,,,,,,,,,,,,,,,,,,,,,,,,,,,,,,,,,,,,,,,,,,,,,,,,,,,,12,001,2022-07-13_15h09.51.393,SelectiveAttentionTest,2022.1.3,59.91267128622715,
10,0,10,0,,,,,,,,,,,,,,,131.17549639999925,None,Congruent,132.18371050000133,132.3984264000028,132.18371050000133,132.3984264000028,132.18371050000133,132.3984264000028,132.18371050000133,132.3984264000028,132.18371050000133,132.3984264000028,132.18371050000133,132.3984264000028,132.18371050000133,132.3984264000028,132.18371050000133,132.3984264000028,Correct,1.0,[0.03125],[-0.09166667],[1],[0],[0],[0.6853522000019439],0.012164990010205656,None,132.36514350000652,None,137.4256732000067,None,137.4256732000067,None,137.4256732000067,None,,,,,,,,,,,,,,,,,,,,,,,,,,,,,,,,,,,,,,,,,,,,,,,,,,,,,,,,,,,,,,,,,12,001,2022-07-13_15h09.51.393,SelectiveAttentionTest,2022.1.3,59.91267128622715,
11,0,11,0,,,,,,,,,,,,,,,137.87801670000772,None,Congruent,138.89396490000945,139.10073310000007,138.89396490000945,139.10073310000007,138.89396490000945,139.10073310000007,138.89396490000945,139.10073310000007,138.89396490000945,139.10073310000007,138.89396490000945,139.10073310000007,138.89396490000945,139.10073310000007,138.89396490000945,139.10073310000007,Correct,1.0,[0.03125],[-0.09166667],[0],[0],[1],[0.44996009999886155],0.010961790001601912,None,139.06753030000255,None,144.13228980000713,None,144.13228980000713,None,144.13228980000713,None,,,,,,,,,,,,,,,,,,,,,,,,,,,,,,,,,,,,,,,,,,,,,,,,,,,,,,,,,,,,,,,,,12,001,2022-07-13_15h09.51.393,SelectiveAttentionTest,2022.1.3,59.91267128622715,
,,,,,,,,,,,,,,,,,,,,,,,,,,,,,,,,,,,,,,,,,,,,,,,,,,,,,,,144.58044839999638,None,return,1.5720513999985997,144.58044839999638,None,,,,,,,,,,,,,,,,,,,,,,,,,,,,,,,,,,,,,,,,,,,,,,,,,,,,,,,,,,,12,001,2022-07-13_15h09.51.393,SelectiveAttentionTest,2022.1.3,59.91267128622715,
,,,,0,0,0,0,,,,,,,,,,,146.1846024999977,None,Neutral,,,,,,,,,,,,,,,,,Correct,1.0,,,,,,,,,,,152.43922810000367,None,152.43922810000367,None,152.43922810000367,None,,,,,,,147.20408029999817,147.40785780000442,147.20408029999817,147.40785780000442,147.20408029999817,147.40785780000442,147.20408029999817,147.40785780000442,147.20408029999817,147.40785780000442,147.20408029999817,147.40785780000442,147.20408029999817,147.40785780000442,147.20408029999817,147.40785780000442,147.18802458999707,None,147.18802458999707,None,147.18802458999707,None,[0.03125],[-0.09166667],[0],[0],[1],[0.4924609000008786],0.004078889993252233,None,147.39364770000975,None,,,,,,,,,,,,,,,,,,,,,,,,,,,12,001,2022-07-13_15h09.51.393,SelectiveAttentionTest,2022.1.3,59.91267128622715,
,,,,1,0,1,0,,,,,,,,,,,152.88717739999993,None,Incongruent,,,,,,,,,,,,,,,,,Correct,1.0,,,,,,,,,,,159.13937140000053,None,159.13937140000053,None,159.13937140000053,None,,,,,,,153.9069724000001,154.11008460000448,153.9069724000001,154.11008460000448,153.9069724000001,154.11008460000448,153.9069724000001,154.11008460000448,153.9069724000001,154.11008460000448,153.9069724000001,154.11008460000448,153.9069724000001,154.11008460000448,153.9069724000001,154.11008460000448,153.89008889001124,None,153.89008889001124,None,153.89008889001124,None,[0.03125],[-0.09166667],[0],[0],[1],[0.46437269999296404],0.008554690008168109,None,154.07648289999634,None,,,,,,,,,,,,,,,,,,,,,,,,,,,12,001,2022-07-13_15h09.51.393,SelectiveAttentionTest,2022.1.3,59.91267128622715,
,,,,2,0,2,0,,,,,,,,,,,159.58965320000425,None,Congruent,,,,,,,,,,,,,,,,,Correct,1.0,,,,,,,,,,,165.83540820000053,None,165.83540820000053,None,165.83540820000053,None,,,,,,,160.5952743000089,160.79556150001008,160.5952743000089,160.79556150001008,160.5952743000089,160.79556150001008,160.5952743000089,160.79556150001008,160.5952743000089,160.79556150001008,160.5952743000089,160.79556150001008,160.5952743000089,160.79556150001008,160.5952743000089,160.79556150001008,160.59213418999715,None,160.59213418999715,None,160.59213418999715,None,[0.03125],[-0.09166667],[0],[0],[1],[0.5186793000029866],0.012437490004231222,None,160.7790670999966,None,,,,,,,,,,,,,,,,,,,,,,,,,,,12,001,2022-07-13_15h09.51.393,SelectiveAttentionTest,2022.1.3,59.91267128622715,
,,,,3,0,3,0,,,,,,,,,,,166.29178050000337,None,Congruent,,,,,,,,,,,,,,,,,Correct,1.0,,,,,,,,,,,172.54268050000246,None,172.54268050000246,None,172.54268050000246,None,,,,,,,167.3082240000076,167.51467020000564,167.3082240000076,167.51467020000564,167.3082240000076,167.51467020000564,167.3082240000076,167.51467020000564,167.3082240000076,167.51467020000564,167.3082240000076,167.51467020000564,167.3082240000076,167.51467020000564,167.3082240000076,167.51467020000564,167.2946930900085,None,167.2946930900085,None,167.2946930900085,None,[0.03125],[-0.09166667],[0],[0],[1],[0.49633779999567196],0.0072920899983728305,None,167.49797799999942,None,,,,,,,,,,,,,,,,,,,,,,,,,,,12,001,2022-07-13_15h09.51.393,SelectiveAttentionTest,2022.1.3,59.91267128622715,
,,,,4,0,4,0,,,,,,,,,,,172.99393510000664,None,Neutral,,,,,,,,,,,,,,,,,Correct,1.0,,,,,,,,,,,179.22216720000142,None,179.22216720000142,None,179.22216720000142,None,,,,,,,174.01615630000015,174.21698820000165,174.01615630000015,174.21698820000165,174.01615630000015,174.21698820000165,174.01615630000015,174.21698820000165,174.01615630000015,174.21698820000165,174.01615630000015,174.21698820000165,174.01615630000015,174.21698820000165,174.01615630000015,174.21698820000165,173.9968787900012,None,173.9968787900012,None,173.9968787900012,None,[0.03125],[-0.09166667],[0],[0],[1],[0.5479596000077436],0.008565889991587028,None,174.18363690000842,None,,,,,,,,,,,,,,,,,,,,,,,,,,,12,001,2022-07-13_15h09.51.393,SelectiveAttentionTest,2022.1.3,59.91267128622715,
,,,,5,0,5,0,,,,,,,,,,,179.69647599999735,None,Congruent,,,,,,,,,,,,,,,,,Correct,1.0,,,,,,,,,,,185.93224799999734,None,185.93224799999734,None,185.93224799999734,None,,,,,,,180.70707040000707,180.9192658999964,180.70707040000707,180.9192658999964,180.70707040000707,180.9192658999964,180.70707040000707,180.9192658999964,180.70707040000707,180.9192658999964,180.70707040000707,180.9192658999964,180.70707040000707,180.9192658999964,180.70707040000707,180.9192658999964,180.6990887900043,None,180.6990887900043,None,180.6990887900043,None,[0.093055554],[0.0034722222],[1],[0],[0],[0.5011203000030946],0.011905490013305098,None,180.88597240000672,None,,,,,,,,,,,,,,,,,,,,,,,,,,,12,001,2022-07-13_15h09.51.393,SelectiveAttentionTest,2022.1.3,59.91267128622715,
,,,,6,0,6,0,,,,,,,,,,,186.39860290000797,None,Congruent,,,,,,,,,,,,,,,,,Incorrect,2.0,,,,,,,,,,,192.65539090000675,None,192.65539090000675,None,192.65539090000675,None,,,,,,,187.41128660000686,187.62168300000485,187.41128660000686,187.62168300000485,187.41128660000686,187.62168300000485,187.41128660000686,187.62168300000485,187.41128660000686,187.62168300000485,187.41128660000686,187.62168300000485,187.41128660000686,187.62168300000485,187.41128660000686,187.62168300000485,187.40159398999967,None,187.40159398999967,None,187.40159398999967,None,"[0.093055554, 0.093055554, 0.093055554]","[0.0034722222, 0.0034722222, 0.0034722222]","[0, 1, 1]","[0, 0, 0]","[1, 1, 0]","[0.48420140000234824, 0.5495559999981197, 0.5831845000066096]",0.011833789991214871,None,187.58824540000933,None,,,,,,,,,,,,,,,,,,,,,,,,,,,12,001,2022-07-13_15h09.51.393,SelectiveAttentionTest,2022.1.3,59.91267128622715,
,,,,7,0,7,0,,,,,,,,,,,193.10103950000484,None,Incongruent,,,,,,,,,,,,,,,,,Correct,1.0,,,,,,,,,,,199.34210330000496,None,199.34210330000496,None,199.34210330000496,None,,,,,,,194.09944740000356,194.30699789999926,194.09944740000356,194.30699789999926,194.09944740000356,194.30699789999926,194.09944740000356,194.30699789999926,194.09944740000356,194.30699789999926,194.09944740000356,194.30699789999926,194.09944740000356,194.30699789999926,194.09944740000356,194.30699789999926,194.08744229001022,None,194.08744229001022,None,194.08744229001022,None,[0.097222224],[0.0020833334],[1],[0],[0],[0.5301743000018178],0.007949790015118197,None,194.27365750000172,None,,,,,,,,,,,,,,,,,,,,,,,,,,,12,001,2022-07-13_15h09.51.393,SelectiveAttentionTest,2022.1.3,59.91267128622715,
,,,,8,0,8,0,,,,,,,,,,,199.78667570000107,None,Incongruent,,,,,,,,,,,,,,,,,Correct,1.0,,,,,,,,,,,206.0315922000009,None,206.0315922000009,None,206.0315922000009,None,,,,,,,200.79577090000384,201.00938770000357,200.79577090000384,201.00938770000357,200.79577090000384,201.00938770000357,200.79577090000384,201.00938770000357,200.79577090000384,201.00938770000357,200.79577090000384,201.00938770000357,200.79577090000384,201.00938770000357,200.79577090000384,201.00938770000357,200.7894079900012,None,200.7894079900012,None,200.7894079900012,None,[],[],[],[],[],[],0.010134990006918088,None,200.97614149999572,None,,,,,,,,,,,,,,,,,,,,,,,,,,,12,001,2022-07-13_15h09.51.393,SelectiveAttentionTest,2022.1.3,59.91267128622715,
,,,,9,0,9,0,,,,,,,,,,,206.48889770000824,None,Neutral,,,,,,,,,,,,,,,,,Incorrect,2.0,,,,,,,,,,,212.73547980000149,None,212.73547980000149,None,212.73547980000149,None,,,,,,,207.5059670000046,207.71194910000486,207.5059670000046,207.71194910000486,207.5059670000046,207.71194910000486,207.5059670000046,207.71194910000486,207.5059670000046,207.71194910000486,207.5059670000046,207.71194910000486,207.5059670000046,207.71194910000486,207.5059670000046,207.71194910000486,207.49203948999784,None,207.49203948999784,None,207.49203948999784,None,"[0.08541667, 0.08888889]","[-0.060416665, -0.060416665]","[0, 1]","[0, 0]","[1, 0]","[0.5119367000006605, 0.6778572000039276]",0.0064417899993713945,None,207.6950330999971,None,,,,,,,,,,,,,,,,,,,,,,,,,,,12,001,2022-07-13_15h09.51.393,SelectiveAttentionTest,2022.1.3,59.91267128622715,
,,,,10,0,10,0,,,,,,,,,,,213.19064159999834,None,Incongruent,,,,,,,,,,,,,,,,,Correct,1.0,,,,,,,,,,,219.44424199999776,None,219.44424199999776,None,219.44424199999776,None,,,,,,,214.2046296000044,214.41393619999872,214.2046296000044,214.41393619999872,214.2046296000044,214.41393619999872,214.2046296000044,214.41393619999872,214.2046296000044,214.41393619999872,214.2046296000044,214.41393619999872,214.2046296000044,214.41393619999872,214.2046296000044,214.41393619999872,214.1938393900069,None,214.1938393900069,None,214.1938393900069,None,"[0.08888889, 0.08888889]","[-0.060416665, -0.060416665]","[0, 1]","[1, 0]","[0, 0]","[0.7647681999951601, 0.8984597999951802]",0.009648890001699328,None,214.38051699999778,None,,,,,,,,,,,,,,,,,,,,,,,,,,,12,001,2022-07-13_15h09.51.393,SelectiveAttentionTest,2022.1.3,59.91267128622715,
,,,,11,0,11,0,,,,,,,,,,,219.89339579999796,None,Neutral,,,,,,,,,,,,,,,,,Correct,1.0,,,,,,,,,,,226.13941620000696,None,226.13941620000696,None,226.13941620000696,None,,,,,,,220.90071260000695,221.09955179999815,220.90071260000695,221.09955179999815,220.90071260000695,221.09955179999815,220.90071260000695,221.09955179999815,220.90071260000695,221.09955179999815,220.90071260000695,221.09955179999815,220.90071260000695,221.09955179999815,220.90071260000695,221.09955179999815,220.89632459001004,None,220.89632459001004,None,220.89632459001004,None,"[0.08888889, 0.08888889]","[-0.060416665, -0.060416665]","[0, 1]","[1, 0]","[0, 0]","[2.3246504999988247, 2.523289199991268]",0.012755989999277517,None,221.08300749999762,None,,,,,,,,,,,,,,,,,,,,,,,,,,,12,001,2022-07-13_15h09.51.393,SelectiveAttentionTest,2022.1.3,59.91267128622715,
,,,,,,,,,,,,,,,,,,,,,,,,,,,,,,,,,,,,,,,,,,,,,,,,,,,,,,,226.59604780000518,None,return,11.396607599992421,226.59604780000518,None,,,,,,,,,,,,,,,,,,,,,,,,,,,,,,,,,,,,,,,,,,,,,,,,,,,,,,,,,,,12,001,2022-07-13_15h09.51.393,SelectiveAttentionTest,2022.1.3,59.91267128622715,
,,,,,,,,0,0,0,0,,,,,,,238.0114126999979,None,Neutral,,,,,,,,,,,,,,,,,Correct,1.0,,,,,,,,,,,244.27491500000178,None,244.27491500000178,None,244.27491500000178,None,,,,,,,,,,,,,,,,,,,,,,,,,,,,,,,,,,,,,,,239.05165049999778,239.25085430000036,239.05165049999778,239.25085430000036,239.05165049999778,239.25085430000036,239.05165049999778,239.25085430000036,239.05165049999778,239.25085430000036,239.0478988700095,None,239.0478988700095,None,239.0478988700095,None,[0.15486111],[-0.10902778],[0],[0],[1],[0.44775929999013897],0.008860570000251755,None,239.23717079999915,None,12,001,2022-07-13_15h09.51.393,SelectiveAttentionTest,2022.1.3,59.91267128622715,
,,,,,,,,1,0,1,0,,,,,,,244.71372379999957,None,Congruent,,,,,,,,,,,,,,,,,None,0.0,,,,,,,,,,,250.96886210000957,None,250.96886210000957,None,250.96886210000957,None,,,,,,,,,,,,,,,,,,,,,,,,,,,,,,,,,,,,,,,245.72883459999866,245.93622580000374,245.72883459999866,245.93622580000374,245.72883459999866,245.93622580000374,245.72883459999866,245.93622580000374,245.72883459999866,245.93622580000374,245.716453490009,None,245.716453490009,None,245.716453490009,None,[],[],[],[],[],[],0.010016590007580817,None,245.9028091000073,None,12,001,2022-07-13_15h09.51.393,SelectiveAttentionTest,2022.1.3,59.91267128622715,
,,,,,,,,2,0,2,0,,,,,,,251.41605590000108,None,Congruent,,,,,,,,,,,,,,,,,None,0.0,,,,,,,,,,,257.6463447999995,None,257.6463447999995,None,257.6463447999995,None,,,,,,,,,,,,,,,,,,,,,,,,,,,,,,,,,,,,,,,252.4301531000092,252.6389305000048,252.4301531000092,252.6389305000048,252.4301531000092,252.6389305000048,252.4301531000092,252.6389305000048,252.4301531000092,252.6389305000048,252.41909019000158,None,252.41909019000158,None,252.41909019000158,None,[],[],[],[],[],[],0.008459289994789287,None,252.6059263000061,None,12,001,2022-07-13_15h09.51.393,SelectiveAttentionTest,2022.1.3,59.91267128622715,
,,,,,,,,3,0,3,0,,,,,,,258.1186042000045,None,Congruent,,,,,,,,,,,,,,,,,Correct,1.0,,,,,,,,,,,264.3684162999998,None,264.3684162999998,None,264.3684162999998,None,,,,,,,,,,,,,,,,,,,,,,,,,,,,,,,,,,,,,,,259.13088530000823,259.3412187000067,259.13088530000823,259.3412187000067,259.13088530000823,259.3412187000067,259.13088530000823,259.3412187000067,259.13088530000823,259.3412187000067,259.12135478999846,None,259.12135478999846,None,259.12135478999846,None,[-0.00625],[0.047916666],[0],[0],[1],[0.41464750000159256],0.009938089991919696,None,259.3078170000081,None,12,001,2022-07-13_15h09.51.393,SelectiveAttentionTest,2022.1.3,59.91267128622715,
,,,,,,,,4,0,4,0,,,,,,,264.82067950000055,None,Congruent,,,,,,,,,,,,,,,,,Correct,1.0,,,,,,,,,,,271.07140410000284,None,271.07140410000284,None,271.07140410000284,None,,,,,,,,,,,,,,,,,,,,,,,,,,,,,,,,,,,,,,,265.83333560000756,266.0433869999979,265.83333560000756,266.0433869999979,265.83333560000756,266.0433869999979,265.83333560000756,266.0433869999979,265.83333560000756,266.0433869999979,265.8233640900013,None,265.8233640900013,None,265.8233640900013,None,[-0.08055556],[0.08888889],[0],[0],[1],[0.4003311999986181],0.01150508999126032,None,266.00991259999864,None,12,001,2022-07-13_15h09.51.393,SelectiveAttentionTest,2022.1.3,59.91267128622715,
,,,,,,,,5,0,5,0,,,,,,,271.523168300002,None,Incongruent,,,,,,,,,,,,,,,,,Correct,1.0,,,,,,,,,,,277.770319800009,None,277.770319800009,None,277.770319800009,None,,,,,,,,,,,,,,,,,,,,,,,,,,,,,,,,,,,,,,,272.5397716000007,272.745797399999,272.5397716000007,272.745797399999,272.5397716000007,272.745797399999,272.5397716000007,272.745797399999,272.5397716000007,272.745797399999,272.52589339000554,None,272.52589339000554,None,272.52589339000554,None,[0.3159722],[0.02638889],[1],[0],[0],[0.5133959999948274],0.007854190000216477,None,272.71240620000754,None,12,001,2022-07-13_15h09.51.393,SelectiveAttentionTest,2022.1.3,59.91267128622715,
,,,,,,,,6,0,6,0,,,,,,,278.2251752000011,None,Neutral,,,,,,,,,,,,,,,,,Correct,1.0,,,,,,,,,,,284.4581448000099,None,284.4581448000099,None,284.4581448000099,None,,,,,,,,,,,,,,,,,,,,,,,,,,,,,,,,,,,,,,,279.2416327000101,279.4479424000019,279.2416327000101,279.4479424000019,279.2416327000101,279.4479424000019,279.2416327000101,279.4479424000019,279.2416327000101,279.4479424000019,279.2281445900022,None,279.2281445900022,None,279.2281445900022,None,"[0.007638889, 0.007638889]","[-0.036805555, -0.036805555]","[1, 1]","[0, 0]","[0, 0]","[0.4645701999979792, 0.731707799990545]",0.009261790008167736,None,279.41489850000653,None,12,001,2022-07-13_15h09.51.393,SelectiveAttentionTest,2022.1.3,59.91267128622715,
,,,,,,,,7,0,7,0,,,,,,,284.9276360000076,None,Neutral,,,,,,,,,,,,,,,,,Correct,1.0,,,,,,,,,,,291.16455549999955,None,291.16455549999955,None,291.16455549999955,None,,,,,,,,,,,,,,,,,,,,,,,,,,,,,,,,,,,,,,,285.9191864000022,286.13359820000187,285.9191864000022,286.13359820000187,285.9191864000022,286.13359820000187,285.9191864000022,286.13359820000187,285.9191864000022,286.13359820000187,285.91360419000705,None,285.91360419000705,None,285.91360419000705,None,[0.007638889],[-0.036805555],[1],[0],[0],[0.5009334000060335],0.01118889001372736,None,286.1002363000007,None,12,001,2022-07-13_15h09.51.393,SelectiveAttentionTest,2022.1.3,59.91267128622715,
,,,,,,,,8,0,8,0,,,,,,,291.6130198000028,None,Incongruent,,,,,,,,,,,,,,,,,Correct,1.0,,,,,,,,,,,297.8681951000035,None,297.8681951000035,None,297.8681951000035,None,,,,,,,,,,,,,,,,,,,,,,,,,,,,,,,,,,,,,,,292.61869540000043,292.81932960000995,292.61869540000043,292.81932960000995,292.61869540000043,292.81932960000995,292.61869540000043,292.81932960000995,292.61869540000043,292.81932960000995,292.6158945900112,None,292.6158945900112,None,292.6158945900112,None,[0.007638889],[-0.036805555],[0],[0],[1],[0.4685897000017576],0.012838890004786663,None,292.8026092000073,None,12,001,2022-07-13_15h09.51.393,SelectiveAttentionTest,2022.1.3,59.91267128622715,
,,,,,,,,9,0,9,0,,,,,,,298.3153847000067,None,Incongruent,,,,,,,,,,,,,,,,,Correct,1.0,,,,,,,,,,,304.56350499999826,None,304.56350499999826,None,304.56350499999826,None,,,,,,,,,,,,,,,,,,,,,,,,,,,,,,,,,,,,,,,299.3263508000091,299.53835909999907,299.3263508000091,299.53835909999907,299.3263508000091,299.53835909999907,299.3263508000091,299.53835909999907,299.3263508000091,299.53835909999907,299.31815279000296,None,299.31815279000296,None,299.31815279000296,None,[0.007638889],[-0.036805555],[0],[0],[1],[0.484013799999957],0.010605289993691258,None,299.50501330000407,None,12,001,2022-07-13_15h09.51.393,SelectiveAttentionTest,2022.1.3,59.91267128622715,
,,,,,,,,10,0,10,0,,,,,,,305.0177865000005,None,Neutral,,,,,,,,,,,,,,,,,Correct,1.0,,,,,,,,,,,311.25979370001005,None,311.25979370001005,None,311.25979370001005,None,,,,,,,,,,,,,,,,,,,,,,,,,,,,,,,,,,,,,,,306.02093440000317,306.2238260000013,306.02093440000317,306.2238260000013,306.02093440000317,306.2238260000013,306.02093440000317,306.2238260000013,306.02093440000317,306.2238260000013,306.02037619000623,None,306.02037619000623,None,306.02037619000623,None,[0.007638889],[-0.036805555],[0],[0],[1],[0.43685670000559185],0.014247190003516153,None,306.2074396000098,None,12,001,2022-07-13_15h09.51.393,SelectiveAttentionTest,2022.1.3,59.91267128622715,
,,,,,,,,11,0,11,0,,,,,,,311.72000899999694,None,Incongruent,,,,,,,,,,,,,,,,,Correct,1.0,,,,,,,,,,,317.96768080000766,None,317.96768080000766,None,317.96768080000766,None,,,,,,,,,,,,,,,,,,,,,,,,,,,,,,,,,,,,,,,312.73152040000423,312.9430097000004,312.73152040000423,312.9430097000004,312.73152040000423,312.9430097000004,312.73152040000423,312.9430097000004,312.73152040000423,312.9430097000004,312.7229411900058,None,312.7229411900058,None,312.7229411900058,None,[0.007638889],[-0.036805555],[1],[0],[0],[0.4151410000049509],0.00952568999491632,None,312.9095917000086,None,12,001,2022-07-13_15h09.51.393,SelectiveAttentionTest,2022.1.3,59.91267128622715,
